Timestamp (us),Gyroscope X (deg/s),Gyroscope Y (deg/s),Gyroscope Z (deg/s),Accelerometer X (g),Accelerometer Y (g),Accelerometer Z (g)
89266164365,0.122010,0.014801,-0.028974,-0.023846,-0.018444,1.000156
89266184421,0.305029,0.098943,0.016987,-0.026334,-0.023480,0.996425
89266204477,-0.335861,-0.070712,0.009471,-0.027599,-0.021339,1.001212
89266224535,0.175505,-0.030831,-0.029348,-0.027181,-0.023791,0.992673
89266244592,-0.152878,0.028585,0.070782,-0.026173,-0.021467,0.997683
89266264648,0.175275,0.083151,0.040010,-0.025595,-0.023851,0.995805
89266284717,-0.358708,-0.047248,-0.081894,-0.024102,-0.020909,0.999084
89266304760,0.206083,-0.053529,-0.044800,-0.024827,-0.021875,0.993517
89266324817,-0.206206,-0.040244,0.070457,-0.026280,-0.021730,0.998596
89266344873,0.015247,-0.069655,0.001219,-0.026399,-0.024042,0.994879
89266364929,-0.152944,0.058948,0.093855,-0.027792,-0.023024,0.996484
89266384986,0.122020,-0.031409,0.031777,-0.026545,-0.022190,0.998140
89266405044,-0.068759,-0.047109,0.016765,-0.027064,-0.020842,0.996565
89266425100,0.213326,0.082409,0.162003,-0.026319,-0.020308,0.995569
89266445157,-0.083985,-0.054571,-0.013769,-0.026245,-0.021206,0.996584
89266465212,0.099030,0.075834,-0.036189,-0.026547,-0.021916,0.998228
89266485269,-0.045744,-0.069298,-0.074961,-0.024235,-0.021029,0.996255
89266505324,-0.206246,0.021174,0.017429,-0.025822,-0.019187,0.998485
89266525381,0.053247,-0.001348,0.070230,-0.026239,-0.021483,0.996222
89266545438,-0.152698,-0.031769,-0.028765,-0.027891,-0.022474,0.996932
89266565495,-0.198432,-0.054579,-0.059339,-0.025973,-0.021024,0.996678
89266585552,-0.091760,0.013764,0.032436,-0.027042,-0.022311,0.995213
89266605608,0.091504,-0.031390,0.016574,-0.026643,-0.022731,0.998509
89266625663,-0.107114,0.036187,0.093634,-0.026952,-0.021037,0.995292
89266645720,0.091392,-0.032240,0.138635,-0.026905,-0.020010,0.997927
89266665776,-0.183146,-0.146954,0.062136,-0.028578,-0.021226,0.994534
89266685833,-2.680871,1.104809,0.097141,-0.027800,-0.018802,0.991693
89266705890,-7.267294,0.673332,-0.087999,-0.031753,-0.087870,0.896791
89266725946,37.906288,-0.504197,-2.098702,-0.038211,0.060808,1.181076
89266746004,-42.424057,1.013617,0.228861,-0.016338,-0.017934,0.971192
89266766060,10.182648,-0.358995,-0.316309,-0.030243,-0.084237,0.861751
89266786116,13.617726,-0.654771,-0.270868,-0.020773,0.037652,1.141068
89266806171,-9.555168,-0.715111,0.014435,-0.034882,-0.056827,0.909796
89266826228,8.671698,-0.391819,-0.603707,-0.020360,0.004242,1.057710
89266846284,-6.548107,-0.237372,-0.514449,-0.033269,-0.033584,0.959647
89266866341,3.611525,-0.350324,-0.960581,-0.024342,-0.013161,1.018605
89266886397,-2.464221,-0.345870,-0.797080,-0.023375,-0.019782,0.993885
89266906456,0.481577,-0.371317,-0.321881,-0.069696,0.012886,1.002596
89266926512,-18.414021,-1.106272,14.202827,-0.485684,0.218526,1.026622
89266946568,20.257553,1.435295,13.515802,-0.434563,0.056925,0.665692
89266966623,40.442055,7.890820,-8.857180,0.082598,-0.181668,1.298511
89266986680,-10.319085,-2.766732,-45.367081,0.342847,-0.131274,1.042495
89267006736,-36.498520,-4.512102,-26.799679,0.067199,0.063615,1.057141
89267026792,-35.356861,-0.633459,-21.155390,0.032063,-0.097914,0.914701
89267046849,12.960508,0.853182,-26.397842,0.060176,-0.373529,0.976583
89267066906,-33.419331,-2.191241,-9.259317,0.197369,0.303658,1.038942
89267086963,-18.239000,0.649229,12.031303,0.103144,0.062395,0.995162
89267107019,-14.931309,-9.994043,17.476259,-0.012812,0.012072,1.111856
89267127076,-5.656303,-37.665550,18.183336,-0.095771,-0.123679,1.023329
89267147131,-7.843304,-20.571531,4.070922,0.049969,0.007429,1.115822
89267167188,-10.217602,-11.251229,14.744169,0.315657,-0.064861,1.403473
89267187244,-16.203812,-37.099564,8.211555,0.546367,-0.040933,1.719226
89267207301,-20.800194,-43.655132,28.313025,0.463309,0.195903,1.673986
89267227357,-13.982835,-37.611023,58.434563,0.255689,0.431368,1.418082
89267247415,4.681883,-47.271645,86.836891,0.306541,0.441640,1.422023
89267267472,17.254667,-81.908249,73.267235,0.243830,0.072954,1.573816
89267287528,26.310677,-146.964828,47.693085,0.065103,0.097785,1.623003
89267307583,16.919722,-185.109650,77.428993,0.077537,-0.038707,1.548952
89267327640,60.735847,-174.463028,55.710609,-0.108425,-0.330559,1.441164
89267347696,68.523468,-154.684265,46.967598,-0.289055,-0.454095,1.060961
89267367752,30.310982,-122.510063,49.711948,-0.238847,-0.472835,0.888888
89267387809,28.625904,-125.572281,36.192734,-0.142589,-0.472841,0.895437
89267407865,64.703476,-168.420975,14.863559,-0.154058,-0.513874,0.899692
89267427923,107.186478,-205.035965,-17.966646,-0.226965,-0.655283,0.931823
89267447980,112.933121,-213.488480,-53.244545,-0.220165,-0.691759,1.034430
89267468036,118.408401,-223.142349,-90.345032,-0.030041,-0.644167,1.166996
89267488091,175.104950,-259.442352,-125.334930,0.035543,-0.487446,1.286525
89267508147,206.987274,-310.086121,-145.643707,0.062374,-0.231518,1.057961
89267528204,209.558151,-339.405823,-164.121918,0.091214,-0.036788,0.870890
89267548260,216.114075,-391.409058,-189.138916,0.124828,0.021357,0.818241
89267568317,193.423965,-396.668762,-166.372681,0.151464,0.100380,0.779824
89267588375,175.545929,-429.569305,-153.503296,-0.141323,0.105156,0.413877
89267608431,245.569412,-460.022888,-156.912125,-0.271385,0.114499,-0.077230
89267628487,293.746277,-444.194489,-148.410675,-0.314740,0.215567,-0.369149
89267648542,313.123871,-423.556427,-121.319992,-0.245179,0.145408,-0.336506
89267668599,208.746933,-414.641785,-101.776794,-0.351780,-0.018849,-0.283863
89267688655,148.576370,-394.480927,-97.845757,-0.568188,0.008357,-0.785636
89267708712,144.427475,-350.002747,-96.910728,-0.575983,0.205195,-1.174280
89267728768,156.059860,-305.880310,-92.138199,-0.631106,0.333386,-1.411444
89267748826,126.240898,-246.597443,-79.859612,-0.536943,0.344939,-1.612766
89267768883,59.314732,-165.752365,-54.924545,-0.502239,0.394114,-1.793365
89267788939,-20.284458,-86.512123,-32.646751,-0.371063,0.414117,-1.783008
89267808995,-95.976242,-24.441923,-7.642733,-0.260686,0.405180,-1.733953
89267829051,-103.761284,11.709295,-6.881708,-0.238158,0.413139,-1.762261
89267849107,-91.059586,43.230335,-7.871704,-0.177235,0.572529,-1.823095
89267869163,-124.615952,81.078445,10.431814,-0.123795,0.728424,-1.792448
89267889220,-150.503296,123.413483,31.884542,-0.127222,0.853070,-1.851275
89267909277,-184.899094,183.541168,64.515709,-0.081914,0.923579,-1.841814
89267929334,-247.029831,239.253983,101.747124,-0.019813,0.923223,-1.627286
89267949391,-232.782242,262.887207,125.104126,0.051007,0.880268,-1.251943
89267969447,-241.870682,278.483887,147.835968,0.011312,0.793752,-1.008994
89267989502,-304.906708,304.942200,170.044159,-0.072916,0.643510,-0.900809
89268009559,-382.823578,341.041809,198.837906,-0.097098,0.644062,-0.727590
89268029615,-421.684723,337.780273,223.926422,0.049866,0.611122,-0.362514
89268049672,-333.195343,293.153320,215.286469,0.140095,0.711692,-0.012120
89268069728,-306.292603,278.974884,231.760284,0.127976,0.872625,-0.340150
89268089786,-320.723145,299.588318,270.477173,-0.038404,0.583998,-0.250484
89268109842,-340.960175,320.697418,298.107117,-0.253152,0.179751,0.018804
89268129899,-361.078156,315.687561,295.923035,-0.146282,-0.071160,0.354994
89268149956,-439.192230,301.432770,319.862823,-0.209579,-0.138821,0.198850
89268170010,-479.587463,310.835266,325.111725,-0.337672,-0.130966,-0.007603
89268190067,-450.493347,306.081604,342.409729,-0.376249,-0.629617,0.147821
89268210123,-408.424011,259.050232,302.841187,-0.268467,-0.857910,0.212221
89268230180,-428.665680,221.513885,295.568542,-0.232281,-0.484494,0.093629
89268250236,-372.510895,197.888748,306.393555,-0.378328,-0.316325,-0.125799
89268270294,-195.353836,181.015015,271.680084,-0.892350,-1.147406,-0.478297
89268290351,-253.629547,235.778503,227.679230,-1.026128,-1.492667,-0.351724
89268310407,-293.744934,206.093903,198.129166,-0.758759,-1.183774,0.568420
89268330462,-186.304611,104.681610,156.028763,-0.691770,-0.812612,0.619549
89268350519,-144.595917,55.949284,162.209961,-1.036804,-0.979499,-0.225731
89268370575,-188.104645,103.359154,156.718185,-1.160037,-1.681444,-0.220508
89268390631,-151.458878,92.975403,105.680008,-0.986351,-1.561953,0.390209
89268410688,-107.574493,38.566216,71.037384,-0.895585,-1.202032,0.158312
89268430746,-119.497208,32.834278,80.552544,-0.960396,-1.286524,-0.234748
89268450802,-110.932953,52.917248,56.940849,-1.065785,-1.673620,-0.256409
89268470858,-70.747238,42.859402,15.335541,-0.916988,-1.460066,0.036998
89268490915,-28.203409,8.615309,-12.750248,-0.992132,-1.601757,-0.045205
89268510970,-28.548721,17.040512,-40.353752,-0.994838,-1.515336,-0.248173
89268531027,-10.136196,19.948328,-55.886639,-0.786945,-1.350693,-0.055642
89268551083,38.784451,-13.668099,-80.546928,-0.834796,-1.561946,-0.025000
89268571139,60.006775,-31.154705,-122.789162,-0.866955,-1.576995,-0.136905
89268591196,65.605942,-35.128269,-146.008347,-0.816311,-1.481067,-0.130180
89268611254,128.340668,-52.233383,-162.513367,-0.758825,-1.359892,-0.107645
89268631310,240.318054,-93.654221,-186.899475,-0.685311,-1.317311,-0.080743
89268651367,309.085388,-129.807205,-209.581482,-0.717129,-1.338062,-0.138029
89268671421,301.800476,-133.726486,-232.716202,-0.781886,-1.275392,-0.121424
89268691478,301.537872,-122.656517,-263.111206,-0.727634,-0.926013,-0.076859
89268711534,498.929688,-160.919388,-322.503876,-0.579726,-0.983301,-0.076731
89268731591,674.705505,-208.616089,-358.699951,-0.522711,-0.998146,-0.092646
89268751647,554.151978,-208.589020,-338.472473,-0.343999,-0.670606,0.168220
89268771705,476.419495,-225.624069,-301.954651,-0.174274,-0.414096,0.346243
89268791762,568.567810,-265.763062,-296.086090,-0.179591,-0.261987,0.201148
89268811818,570.967041,-272.344391,-280.376434,-0.164325,-0.084857,0.051235
89268831875,525.688538,-249.832062,-256.286377,-0.026712,0.082229,-0.067812
89268851930,554.614746,-240.513794,-228.145157,0.088640,0.395152,-0.027990
89268871986,571.554932,-255.646301,-191.617599,0.201082,0.383979,0.033444
89268892043,503.406250,-250.999969,-161.286285,0.146070,0.274696,-0.112412
89268912099,479.676971,-232.092072,-158.679398,0.125025,0.217505,-0.150391
89268932156,453.555420,-231.307892,-157.048538,0.076680,0.231067,-0.012798
89268952213,369.479462,-239.058823,-142.434555,-0.007690,0.496531,-0.311511
89268972270,322.873474,-221.703430,-102.688110,0.000289,0.756747,-0.801451
89268992326,302.459351,-186.989502,-61.799320,0.005738,0.679203,-0.993685
89269012381,191.534348,-124.804123,-35.960896,0.014830,0.556775,-0.861164
89269032438,107.471802,-105.131081,-21.065104,0.023821,0.650199,-0.522248
89269052494,130.307709,-136.059845,-12.795989,-0.030684,0.639958,-0.680325
89269072550,180.224304,-131.132034,-19.515610,-0.073627,0.425459,-1.257066
89269092607,170.688400,-92.948631,-18.708525,0.030176,0.358317,-1.298613
89269112665,110.072693,-73.911018,-10.366282,0.007164,0.308542,-1.157286
89269132721,66.414246,-73.494492,-11.323037,0.021753,0.418028,-1.273894
89269152778,31.828476,-57.833900,-0.515200,0.128750,0.531359,-1.494443
89269172834,-8.123310,-27.381893,12.124349,0.107948,0.415989,-1.419481
89269192889,-2.541120,-21.107603,7.605685,0.104483,0.398323,-1.318188
89269212946,166.371994,-31.618475,4.774529,0.155761,0.614141,-2.253426
89269233002,112.846489,18.098753,6.837091,0.046828,0.027655,-1.547844
89269253058,-99.862091,40.076435,-8.950881,0.190292,0.150599,-1.279526
89269273115,-142.306107,28.714396,-8.852598,0.258024,0.607242,-1.425270
89269293173,-85.238197,32.968628,10.647385,0.280251,0.872083,-1.714770
89269313229,-128.637756,72.229980,40.047024,0.156859,0.667190,-1.628970
89269333286,-196.218842,100.302467,55.437546,0.074889,0.530984,-1.482131
89269353341,-240.017349,116.884430,64.955307,0.069990,0.609054,-1.466125
89269373397,-297.764435,141.930923,81.667702,0.036002,0.801235,-1.483860
89269393454,-329.931458,172.177399,111.655914,0.044967,0.873785,-1.229088
89269413510,-355.486694,187.043365,147.107651,-0.012982,0.761077,-0.936385
89269433567,-407.261963,193.822617,172.631546,-0.049844,0.593602,-0.716473
89269453624,-445.875305,207.237244,184.333145,-0.033528,0.624170,-0.599383
89269473681,-483.598877,207.209824,212.285019,0.069146,0.688542,-0.380892
89269493738,-550.144836,192.606262,248.294083,0.051699,0.561249,-0.315860
89269513793,-595.466187,190.938873,274.136292,0.007463,0.511394,-0.297162
89269533849,-634.429993,214.395355,318.636353,0.039576,0.355759,-0.078459
89269553906,-687.784973,210.085190,344.827759,0.026476,0.037450,0.235889
89269573962,-746.468079,176.176193,335.708374,0.106912,-0.118564,0.334547
89269594019,-743.734192,118.977234,333.080872,0.113351,-0.180075,0.276607
89269614076,-677.282654,103.060532,298.670868,0.068527,-0.141395,-0.079593
89269634133,-533.181274,88.277603,259.223114,0.038542,-0.427327,-0.418768
89269654189,-421.460449,53.726112,229.050797,-0.093708,-0.811682,-0.632887
89269674245,-303.679626,54.133522,185.852051,-0.134432,-0.892445,-0.526939
89269694301,-234.425217,57.178646,169.198944,0.022574,-0.578614,-0.248723
89269714357,-152.845276,35.897465,183.669891,-0.123379,-0.771350,-0.297662
89269734414,-191.805862,65.515030,174.094208,-0.353575,-1.024157,-0.342952
89269754470,-231.328247,81.706757,165.795547,-0.213248,-0.665933,-0.202096
89269774526,-166.875198,41.461227,184.400360,-0.292463,-0.647583,-0.304947
89269794584,-112.889503,25.357233,184.922409,-0.471523,-0.749180,-0.376774
89269814640,-109.002525,20.403252,182.337082,-0.561723,-0.965862,-0.181215
89269834697,-100.654961,-5.533707,168.095703,-0.591528,-1.129861,-0.150486
89269854752,-97.943954,-21.901730,159.270859,-0.635145,-1.262570,-0.441269
89269874809,-101.344604,-15.728350,145.849243,-0.673912,-1.617833,-0.752564
89269894865,-79.789436,-5.771394,113.256912,-0.662551,-1.787943,-0.764324
89269914921,-51.965843,1.514908,74.434563,-0.561984,-1.732114,-0.763880
89269934978,-29.624508,5.375512,43.138702,-0.498574,-1.603965,-0.656114
89269955036,-11.909677,5.071359,19.553999,-0.479459,-1.442179,-0.620977
89269975092,6.777026,8.145176,4.403094,-0.498884,-1.440928,-0.598277
89269995149,32.813469,9.056871,-15.046488,-0.521794,-1.441946,-0.558195
89270015205,45.098347,7.262862,-32.923965,-0.491511,-1.385149,-0.426448
89270035260,59.445732,-5.151336,-52.464447,-0.489105,-1.353148,-0.390910
89270055316,83.905548,-13.519375,-69.213745,-0.486409,-1.303783,-0.494668
89270075372,130.891907,-16.903856,-80.113823,-0.500076,-1.350049,-0.521775
89270095429,195.790665,-25.833145,-97.259453,-0.466880,-1.371621,-0.487162
89270115486,280.676117,-39.350185,-120.259407,-0.452165,-1.435583,-0.448319
89270135543,335.733032,-53.818546,-141.579071,-0.418879,-1.351498,-0.332053
89270155600,375.265228,-73.014267,-155.560562,-0.387120,-1.150395,-0.082024
89270175656,396.050446,-113.319321,-168.164841,-0.441540,-1.111718,0.144935
89270195711,436.469757,-142.366302,-201.555511,-0.392510,-1.032584,-0.020677
89270215768,489.704620,-156.218155,-201.483719,-0.241502,-0.828354,-0.080868
89270235824,583.330078,-173.579041,-186.178848,-0.203175,-0.705619,0.124821
89270255881,629.589600,-198.325836,-178.310699,-0.183244,-0.637851,0.436133
89270275937,607.107666,-209.529068,-173.135727,-0.145088,-0.503284,0.556033
89270295995,597.179932,-218.369232,-170.127869,-0.034444,-0.420588,0.649410
89270316051,520.285889,-228.035706,-160.222733,0.004072,-0.190047,0.706951
89270336108,427.481842,-231.343719,-164.753204,0.039472,-0.023369,0.567383
89270356164,421.469910,-237.740997,-165.758011,0.088418,0.203634,0.382154
89270376219,472.736633,-237.302277,-156.295593,0.175015,0.366312,0.098099
89270396276,510.389709,-223.737579,-129.486816,0.222645,0.534506,-0.069534
89270416332,527.620544,-204.235748,-106.671532,0.250361,0.646455,-0.245398
89270436389,548.359863,-194.517883,-82.274361,0.294913,0.605632,0.036022
89270456445,439.648163,-212.589157,-70.700340,0.111255,0.306285,0.177204
89270476503,358.068726,-232.529572,-78.770309,0.063005,0.359986,-0.159525
89270496559,377.764862,-236.948883,-76.063217,0.052147,0.548998,-0.592927
89270516616,423.157074,-225.825623,-45.064327,0.063180,0.499635,-0.871663
89270536671,397.065735,-205.489990,-16.146917,0.003404,0.204515,-0.821338
89270556728,239.251984,-180.346832,-4.915348,-0.036398,0.148710,-0.806322
89270576784,131.719116,-159.143768,7.506616,-0.004964,0.191611,-1.248890
89270596840,132.444275,-119.895187,11.864606,-0.025683,0.016023,-1.552997
89270616896,129.042358,-82.987137,1.079540,0.005132,-0.082684,-1.236072
89270636954,94.686195,-78.249573,-12.775983,0.049493,0.058851,-1.127444
89270657011,43.201244,-81.056999,-5.453165,0.149936,0.108647,-1.295870
89270677067,-20.599022,-61.208626,3.510065,0.120369,0.126771,-1.687039
89270697145,-49.925568,-29.926908,-2.212395,0.113021,0.253084,-1.804247
89270717179,-35.794655,-5.211128,-2.849777,0.171158,0.460522,-1.711874
89270737235,-30.212252,9.396966,12.243484,0.188839,0.395263,-1.622791
89270757292,-85.966087,32.046623,23.299767,0.166562,0.303167,-1.695797
89270777348,-160.092529,64.045570,28.853910,0.095475,0.397400,-1.756102
89270797405,-227.634689,88.991508,48.329742,0.108342,0.681042,-1.646635
89270817463,-287.982422,108.572464,79.562164,0.088160,0.695221,-1.622087
89270837519,-348.570953,138.462769,107.432487,0.012283,0.597850,-1.490069
89270857575,-408.593079,170.195541,130.666901,-0.031996,0.584206,-1.276295
89270877630,-437.117584,186.841309,147.130692,0.029416,0.731972,-0.987261
89270897686,-465.813568,207.235641,169.843033,-0.015634,0.738758,-0.845425
89270917743,-532.452332,222.472229,193.362442,-0.016786,0.700332,-0.607853
89270937799,-594.633545,208.571808,221.143784,0.052668,0.732950,-0.290113
89270957856,-590.397034,187.000092,254.465820,0.115051,0.671495,-0.076998
89270977914,-577.897400,169.340790,284.928406,0.095122,0.445836,0.003859
89270997970,-556.509155,154.902557,305.766724,0.130135,0.335527,0.080177
89271018027,-518.753357,130.135040,322.988037,0.151061,0.139830,0.265364
89271038084,-512.926208,107.268890,330.268768,0.088009,-0.106913,0.369546
89271058138,-583.671448,92.770905,326.408600,0.056988,-0.298325,0.247037
89271078194,-668.630920,86.786644,328.050232,0.147705,-0.248094,0.093474
89271098251,-615.472046,60.408020,314.465881,0.128747,-0.360006,-0.110147
89271118307,-468.990204,24.482040,284.390656,0.013127,-0.549009,-0.095162
89271138364,-381.269531,5.919523,240.840118,-0.082972,-0.746783,-0.135266
89271158421,-322.610962,9.460867,208.874496,-0.145267,-0.816536,-0.291459
89271178478,-245.540436,16.268164,177.879974,-0.126338,-0.902588,-0.339678
89271198534,-154.887497,0.238847,161.857849,-0.125170,-0.857450,-0.151428
89271218589,-137.037537,-14.705675,155.341431,-0.230404,-1.111817,-0.084166
89271238646,-134.136536,-19.179134,137.052444,-0.268515,-1.040350,-0.198330
89271258702,-94.803268,-13.906920,134.626221,-0.250444,-0.777456,-0.404513
89271278759,-82.213379,4.183114,159.935928,-0.300619,-0.871105,-0.524000
89271298815,-86.986946,25.639336,162.684601,-0.412801,-1.156942,-0.354445
89271318873,-60.248096,-15.981945,119.087379,-0.424672,-1.323184,-0.040488
89271338929,-59.836266,-40.185200,91.535118,-0.405063,-0.982345,-0.468896
89271358985,-74.193382,-25.618990,109.967278,-0.345216,-0.876483,-0.659505
89271379041,-24.766375,-7.897969,109.101868,-0.475813,-1.223304,-0.708540
89271399097,-14.421722,6.457544,92.295334,-0.448037,-1.206915,-0.398699
89271419154,-5.632494,-13.194366,77.557503,-0.466797,-1.351988,-0.347724
89271439210,3.975567,-21.822266,51.510475,-0.556547,-1.637441,-0.558222
89271459266,15.649343,-20.238729,20.669947,-0.613819,-1.838935,-0.621090
89271479323,36.043690,-17.326120,-16.647591,-0.627223,-1.854791,-0.625818
89271499381,65.067383,-15.585530,-48.700768,-0.594820,-1.784360,-0.607385
89271519437,94.203781,-15.370159,-76.468269,-0.578564,-1.679214,-0.608341
89271539493,159.018616,-20.893307,-107.180412,-0.560964,-1.540907,-0.602160
89271559548,241.455093,-30.775616,-136.997116,-0.508042,-1.420132,-0.531087
89271579605,310.158417,-45.360691,-165.559113,-0.481416,-1.359898,-0.366518
89271599661,352.480103,-80.807373,-190.897720,-0.396516,-1.317551,-0.099679
89271619718,394.765472,-130.269821,-204.550095,-0.433594,-1.161645,-0.118345
89271639774,404.900452,-137.532486,-208.373749,-0.500209,-1.056653,-0.157706
89271659832,420.675659,-128.035736,-213.417435,-0.339160,-0.854396,0.020849
89271679888,486.533661,-145.398132,-214.717163,-0.291600,-0.834504,0.249747
89271699945,492.909576,-156.901306,-232.460205,-0.309001,-0.908464,0.382144
89271720006,464.925781,-171.717392,-247.667175,-0.154514,-0.550550,0.424572
89271740056,507.117004,-193.028534,-244.996719,-0.008432,-0.315004,0.359927
89271760112,619.242126,-222.878937,-241.099960,0.071010,-0.080945,0.426589
89271780169,608.067383,-233.253052,-207.918457,0.187912,0.064475,0.442488
89271800225,553.831055,-236.315887,-171.632141,0.201063,0.076282,0.355308
89271820282,506.067688,-241.755859,-148.570282,0.109980,0.197441,0.426230
89271840339,468.019287,-263.746246,-155.677979,0.069387,0.379957,0.283054
89271860396,484.391357,-281.882965,-143.825073,0.168437,0.497600,-0.021430
89271880452,492.273315,-273.196777,-113.521484,0.169453,0.511961,-0.352692
89271900507,480.508881,-260.739838,-89.201897,0.142086,0.519361,-0.403548
89271920564,474.667511,-267.760437,-67.483665,0.174571,0.548640,-0.347804
89271940620,428.394104,-268.080872,-29.447811,0.070866,0.360239,-0.422453
89271960677,298.692902,-246.000519,1.329127,-0.080553,0.155439,-0.626248
89271980733,115.570786,-211.190796,12.352274,-0.144489,0.153756,-1.271975
89272000791,76.525261,-168.793274,8.507927,-0.083294,0.288818,-1.791725
89272020847,85.933777,-116.184685,11.215347,-0.036283,0.130186,-1.623974
89272040903,-24.551392,-70.139938,7.803603,0.017256,-0.062028,-1.337691
89272060959,-125.401962,-46.077236,-12.902213,0.049681,0.197434,-1.488380
89272081015,-99.179352,-17.626835,-21.083673,0.138658,0.360700,-1.698420
89272101071,-109.722221,29.846731,-18.959272,0.164942,0.527517,-1.650981
89272121128,-151.380661,71.550026,-10.756797,0.253977,0.687913,-1.395138
89272141184,-153.172577,92.913162,3.284694,0.220977,0.659730,-1.153989
89272161242,-214.952271,114.823174,19.466402,0.206711,0.590123,-1.039734
89272181299,-328.827179,148.708618,35.921398,0.139698,0.516287,-1.117066
89272201355,-430.512878,202.575012,45.984131,0.017070,0.567596,-1.130792
89272221411,-512.126099,259.871124,60.479588,-0.040349,0.649944,-0.908936
89272241467,-509.634155,296.506439,81.396530,-0.033832,0.477250,-0.541108
89272261523,-478.729309,318.596985,104.065781,-0.003769,0.423049,-0.227520
89272281579,-488.096649,325.887268,218.151855,-0.053170,0.373401,0.072304
89272301636,-487.251862,293.819336,246.220505,-0.324125,0.270039,0.303805
89272321692,-475.281647,282.683899,195.504257,-0.528605,-0.149505,0.510333
89272341750,-436.863770,281.550659,161.372086,-0.322820,-0.730242,0.857885
89272361806,-292.967163,196.311157,107.502808,-0.167687,-0.989832,1.402689
89272381863,-319.210205,113.612488,66.290329,0.217584,-0.713653,1.957617
89272401918,-395.325745,66.920143,109.391235,0.581906,-0.124932,1.738432
89272421974,-398.630280,66.917786,149.999298,0.501448,-0.175166,1.264699
89272442031,-297.215210,72.522079,149.378693,0.363808,-0.383688,1.123414
89272462087,-126.829803,89.617432,79.645851,0.359149,-0.503368,0.951799
89272482143,42.658157,90.301613,-0.767158,0.107711,-0.439991,0.821683
89272502202,106.021744,88.994179,-20.510813,0.007606,-0.519405,0.921850
89272522258,91.189774,65.461578,1.694932,-0.070639,-0.577223,0.985061
89272542314,44.079109,78.631058,7.871511,-0.160857,-0.534904,0.913481
89272562371,40.515068,71.055450,2.842218,0.100792,-0.292892,1.015580
89272582425,69.538307,30.441307,29.206053,0.281472,-0.248134,1.119723
89272602482,135.444458,-5.631088,13.502687,0.144015,-0.389062,1.123365
89272622539,128.495163,1.539019,-2.042635,0.056027,-0.301971,1.135249
89272642595,85.461113,25.623421,27.340002,-0.085540,-0.209036,1.014984
89272662651,92.169472,22.354540,41.437149,0.024577,-0.078493,0.937332
89272682709,126.480690,53.331921,39.687962,0.152554,-0.196403,0.988933
89272702765,182.773941,107.768211,-23.341322,0.259979,-0.062535,1.927545
89272722822,13.284432,63.297604,-20.753183,0.051911,-0.151561,1.559761
89272742876,-0.117579,7.355494,32.783325,-0.052188,0.450345,0.634555
89272762933,-98.416107,-61.461239,96.685104,-0.381949,0.476397,1.260494
89272782989,13.334228,-0.170099,82.294907,0.064834,-0.355858,1.024089
89272803046,-6.664001,-4.074984,39.850883,-0.067827,-0.156463,0.975963
89272823102,-10.623172,-3.842314,61.793110,-0.233090,-0.061862,1.048526
89272843160,-29.708088,-8.420074,121.779503,0.040672,0.066465,0.962383
89272863217,8.705614,-1.477021,128.886246,-0.062834,-0.120900,0.934796
89272883273,-3.517044,-0.912295,40.642715,-0.017618,-0.085431,1.018531
89272903329,3.098904,0.823096,-9.680209,0.071218,0.024649,1.007936
89272923384,-6.024692,-0.295128,-5.154243,0.087874,0.049498,1.003685
89272943441,3.037227,0.490364,-0.283058,0.067415,0.032623,1.022736
89272963497,0.424933,0.059333,2.465477,0.062049,0.010051,0.984574
89272983553,-0.788783,-0.006832,2.703751,0.003634,-0.007306,0.980662
89273003610,0.571007,-0.132854,1.632468,-0.000934,-0.002289,1.008159
89273023667,0.457700,-0.093355,0.297817,-0.016296,0.003012,1.001062
89273043724,0.418563,-0.023697,1.236693,-0.017465,0.000038,0.994779
89273063780,0.213220,-0.126702,0.603216,-0.014751,0.001411,0.995909
89273083835,0.098010,0.114387,1.001608,-0.020131,0.005238,0.996313
89273103891,0.143236,-0.044104,1.862650,-0.015794,-0.001108,0.998290
89273123948,0.106076,0.001969,0.711001,-0.017050,-0.000755,0.997167
89273144005,0.417964,0.095204,1.695167,-0.023415,0.003152,0.996549
89273164061,0.318071,-0.087604,2.701274,-0.016707,-0.000379,0.998447
89273184119,-0.092759,-0.040102,1.191735,-0.016052,0.001519,0.997435
89273204175,-0.108628,0.063281,1.680658,-0.014947,0.001057,0.996731
89273224231,-0.131183,0.119821,1.223297,-0.015539,0.001448,0.999361
89273244288,0.127980,0.056221,1.695449,-0.016992,-0.000518,0.993791
89273264343,0.250336,-0.065095,1.633456,-0.013555,0.003186,1.000564
89273284399,0.152029,0.011007,0.527875,-0.014787,0.001433,0.998007
89273304455,-0.069135,0.050335,0.269122,-0.017780,0.002428,0.997301
89273324512,0.106511,0.043844,0.177218,-0.019147,0.000520,0.997296
89273344568,0.076010,0.028549,0.169550,-0.020689,0.000336,0.996905
89273364626,0.343146,-0.040161,0.283088,-0.018492,0.001873,0.996290
89273384683,-0.053677,-0.125605,0.336682,-0.016903,-0.000244,0.993881
89273404739,0.686206,0.119736,0.474177,-0.018121,0.000197,1.001242
89273424794,-0.573190,0.046608,0.598054,-0.018122,0.004051,0.995999
89273444850,0.029049,0.073591,1.352422,-0.019085,0.004811,0.999074
89273464907,-0.275952,0.005584,1.131310,-0.016391,-0.001314,0.995909
89273484963,-0.069698,0.169501,0.689451,-0.015235,0.001465,0.992251
89273505020,-1.062774,0.106337,1.682631,-0.021123,0.000015,1.001005
89273525077,1.356782,0.182783,1.556695,-0.019140,0.002243,0.996912
89273545134,-0.534872,-0.137270,0.718929,-0.014641,0.000855,0.994823
89273565190,-0.367587,0.059002,1.093654,-0.019899,0.002445,0.998720
89273585248,-0.573837,0.165136,1.109930,-0.018860,0.001057,0.996475
89273605301,-0.077676,-0.080019,1.450855,-0.015188,0.000401,0.994818
89273625358,-0.435842,-0.076738,0.833558,-0.018253,0.000803,0.998313
89273645414,0.037334,-0.014021,0.787318,-0.018696,-0.001296,0.997507
89273665471,-0.320920,-0.134851,0.459171,-0.012685,0.000246,0.997603
89273685527,0.022759,-0.093695,0.168899,-0.020970,0.000068,0.997358
89273705584,0.045503,0.036358,0.131507,-0.017771,0.002332,0.996755
89273725641,-0.084497,0.034126,0.398745,-0.021536,0.001898,0.998513
89273745697,-0.275411,0.032836,0.505887,-0.016319,0.002515,0.997054
89273765752,-0.191891,0.091463,0.887551,-0.022767,0.001055,0.995945
89273785809,0.190059,-0.136472,0.900733,-0.017330,0.001613,0.997592
89273805865,-0.314023,-0.063254,1.138587,-0.016490,-0.000491,0.996354
89273825921,0.167324,-0.150736,0.748105,-0.011136,0.003426,0.997597
89273845978,-0.175941,0.073559,0.177905,-0.017408,-0.000486,0.996793
89273866035,-0.015716,0.081276,0.231069,-0.018989,0.001172,0.998752
89273886092,-0.031217,0.087162,0.475265,-0.021092,0.002031,0.993868
89273906148,0.167117,0.079141,0.612184,-0.015878,0.001342,0.997896
89273926203,0.090875,0.079561,0.520774,-0.019428,0.001071,0.997741
89273946260,0.022216,0.079631,0.482752,-0.017719,0.002355,0.999036
89273966316,-0.268036,0.015469,0.810933,-0.018747,0.003589,0.995263
89273986372,0.640270,0.025964,0.771223,-0.018763,-0.000765,0.996132
89274006429,-0.367158,0.008246,0.711888,-0.016765,-0.002944,0.996467
89274026487,0.075524,0.132879,0.528756,-0.015513,0.002705,0.997888
89274046543,-0.199420,0.200238,0.605951,-0.019405,0.002421,0.996449
89274066599,-0.412952,0.069852,0.613167,-0.017970,0.002433,0.997753
89274086656,-0.259966,-0.066053,0.467110,-0.013371,0.002311,0.995104
89274106711,-0.092259,0.117988,0.406900,-0.017458,-0.000329,0.994418
89274126767,-0.008013,-0.010749,0.299156,-0.016611,0.001436,0.998155
89274146824,-0.000179,-0.032343,0.115911,-0.018522,0.001073,0.998032
89274166880,-0.061280,0.028900,0.062991,-0.019502,0.000060,0.996747
89274186936,0.197545,0.271325,0.422575,-0.019149,-0.000569,0.997400
89274206994,0.029560,0.185472,0.628338,-0.019379,0.003733,1.000266
89274227050,0.091069,-0.034686,0.489560,-0.015792,-0.001165,0.992817
89274247107,0.434150,-0.005787,0.862948,-0.024330,0.004120,1.002176
89274267162,-0.321559,-0.085690,1.069801,-0.018868,-0.002812,0.991592
89274287219,0.174783,0.056271,0.612031,-0.011263,0.002630,0.999701
89274307275,0.144041,0.016010,0.901747,-0.019400,0.003690,0.996162
89274327331,0.045431,-0.118489,0.450985,-0.008560,-0.001228,0.996055
89274347387,0.342814,0.080760,0.451668,-0.022974,0.001706,0.997394
89274367445,0.129180,-0.173843,0.763290,-0.019505,0.000153,0.996929
89274387501,0.052789,-0.012541,0.581313,-0.017607,0.000524,0.997781
89274407558,-0.091700,-0.032073,0.039786,-0.015495,0.000603,0.996817
89274427615,0.007465,-0.039952,0.115851,-0.014489,-0.000218,0.996571
89274447669,0.129596,0.022187,0.009204,-0.015450,0.001723,0.999542
89274467725,0.015333,-0.084438,-0.067534,-0.017357,-0.000098,0.999161
89274487782,-0.167831,-0.107960,-0.052091,-0.016952,0.001422,0.996780
89274507838,-0.061070,-0.046662,-0.044279,-0.017524,0.002348,0.998310
89274527895,-0.274923,0.028821,-0.012918,-0.019623,0.003170,0.998535
89274547952,-0.053641,0.082975,-0.028243,-0.018587,0.000693,0.996484
89274568009,0.274852,-0.075905,-0.090834,-0.018622,0.002078,0.998566
89274588065,-0.305527,0.113043,-0.065753,-0.016938,0.003833,1.001315
89274608120,0.236477,-0.008189,0.031714,-0.018945,0.002872,0.996179
89274628177,-0.107263,-0.080665,0.436231,-0.022379,-0.001324,0.994520
89274648233,0.097958,0.106277,1.070221,-0.020213,0.000232,0.995729
89274668289,1.013214,0.196477,1.641315,-0.024592,-0.000578,0.996112
89274688345,-0.008395,-0.098514,0.847917,-0.012909,0.005271,1.000097
89274708403,-0.099481,-0.110369,0.321599,-0.007465,0.000407,0.995966
89274728460,-0.084335,0.019928,0.246076,-0.016678,0.000240,0.996707
