Timestamp (us),Gyroscope X (deg/s),Gyroscope Y (deg/s),Gyroscope Z (deg/s),Accelerometer X (g),Accelerometer Y (g),Accelerometer Z (g)
5084796988,0.029069,0.060913,-0.087200,-0.047676,0.010807,0.987890
5084817047,0.134631,-0.015448,-0.049490,-0.048414,0.012344,1.004461
5084837107,-0.055354,0.029230,0.027416,-0.049682,0.013138,0.993391
5084857165,0.325467,0.045356,0.057302,-0.047897,0.012432,0.995530
5084877224,-0.003172,0.044475,0.019545,-0.047860,0.010737,0.998651
5084897282,-0.033625,0.036980,-0.018532,-0.049546,0.011439,0.996058
5084917339,0.187463,0.105659,0.042401,-0.048206,0.013817,0.997607
5084937398,0.088152,-0.024040,-0.019237,-0.050469,0.012538,0.996758
5084957456,0.125975,-0.000456,-0.095249,-0.049553,0.010716,0.996430
5084977515,-0.087942,0.021093,0.012159,-0.049018,0.012995,0.997145
5084997573,0.232422,0.044406,0.072675,-0.050030,0.013275,0.997761
5085017632,-0.057763,0.020300,0.103344,-0.049551,0.010896,0.996337
5085037692,0.048989,0.104616,0.072846,-0.049034,0.014369,0.998132
5085057750,-0.202691,-0.010346,0.026769,-0.047653,0.013086,0.997260
5085077808,0.011329,0.066499,0.026785,-0.049844,0.011091,0.997515
5085097867,0.072258,0.050954,0.072177,-0.048138,0.013650,0.998978
5085117924,-0.011592,-0.032773,-0.004538,-0.047181,0.011985,0.996278
5085137982,-0.148819,-0.071616,0.064136,-0.046763,0.013007,0.998464
5085158041,0.103103,-0.009686,0.063861,-0.047393,0.012094,0.998006
5085178100,-0.011692,0.051346,-0.004350,-0.047380,0.012813,0.997269
5085198158,-0.057088,-0.032014,-0.111461,-0.048374,0.013354,0.996788
5085218216,-0.102650,-0.024499,-0.095824,-0.047283,0.013264,0.996901
5085238276,0.034654,-0.055476,0.041157,-0.049226,0.010556,0.998627
5085258334,0.019287,0.013705,-0.019416,-0.050386,0.012088,0.997220
5085278393,-0.011229,0.005508,0.033917,-0.048296,0.012544,0.997528
5085298451,-0.056854,0.021431,-0.080297,-0.048874,0.010200,0.999368
5085318508,0.088038,0.013819,-0.026966,-0.051042,0.012100,0.998302
5085338567,-0.171368,-0.017329,-0.064805,-0.048034,0.011187,0.998187
5085358625,-0.132991,0.127121,0.027682,-0.048192,0.013082,0.996794
5085378684,0.027640,-0.032533,-0.019443,-0.047996,0.009982,0.995920
5085398742,0.050384,0.012895,0.057154,-0.046475,0.015543,0.997620
5085418801,-0.025846,-0.062665,-0.080557,-0.047918,0.011172,0.996729
5085438861,0.004535,0.051345,0.004087,-0.047732,0.012806,0.996532
5085458919,0.065320,0.165707,0.004686,-0.052303,0.011274,0.997467
5085478978,0.057650,0.096493,0.027227,-0.050771,0.012374,0.998487
5085499036,0.111064,0.012977,-0.026792,-0.050033,0.010913,0.997878
5085519093,0.057591,-0.132039,-0.035218,-0.048203,0.012361,0.997441
5085539152,0.118179,0.004932,0.064659,-0.046373,0.012173,0.996930
5085559210,0.064619,-0.048278,0.033878,-0.049301,0.011183,0.997707
5085579268,0.018554,0.004527,0.110277,-0.049734,0.012897,0.996403
5085599327,-0.095581,-0.063460,-0.027261,-0.049969,0.012293,0.999506
5085619387,-0.034727,0.065665,0.087688,-0.051289,0.011175,0.996757
5085639446,-0.072605,0.104986,-0.125568,-0.051192,0.013444,0.996460
5085659504,-0.095221,-0.010372,-0.026781,-0.047601,0.011109,0.999473
5085679562,-0.087517,0.095816,0.065283,-0.047444,0.011706,0.995638
5085699619,-0.056697,0.027520,-0.003927,-0.048828,0.011809,0.996705
5085719678,0.187250,0.104115,0.026638,-0.051117,0.012999,0.997379
5085739736,-0.141448,0.224570,0.096433,-0.043458,0.015731,0.980982
5085759795,53.078262,3.671073,-1.931090,-0.050618,0.009422,0.968147
5085779853,14.160840,1.988414,-0.856924,-0.044722,0.028276,1.007180
5085799912,4.256158,-0.011661,-0.416517,-0.061722,0.053604,1.037594
5085819972,1.125875,0.790314,-0.703547,-0.052434,0.035021,0.973484
5085840030,4.847083,3.767726,-1.561763,-0.047543,0.041923,0.964559
5085860089,9.633512,4.828779,-4.035701,-0.045427,0.087992,1.006685
5085880147,11.128421,3.370550,-8.800221,-0.040805,0.051779,0.986195
5085900204,9.137028,3.501487,-9.787639,-0.064633,-0.003242,0.999222
5085920263,4.902520,2.078099,-1.083912,-0.071904,0.038887,1.020235
5085940321,6.156687,-0.476801,0.309632,-0.064961,0.052031,1.008543
5085960379,4.953315,-2.165670,0.164156,-0.059872,0.056287,0.998649
5085980438,3.755235,-2.398708,0.264060,-0.056140,0.059740,0.998863
5086000496,-0.252378,-1.650053,-0.395549,-0.057774,0.062703,1.003907
5086020556,-4.129646,-2.231234,0.386024,-0.066217,0.070238,1.002388
5086040614,-4.510793,-1.144703,6.382197,-0.049382,0.052416,1.003085
5086060673,-8.288455,-0.183569,12.559162,-0.061588,0.060830,1.024563
5086080732,-28.306765,-1.008170,19.776640,0.009962,0.190852,1.173053
5086100789,-95.675270,-0.574947,22.066719,-0.085565,-0.066606,1.162540
5086120847,-168.152298,-1.570313,12.638912,-0.106837,-0.087396,1.442412
5086140905,-261.098846,-36.553062,5.626617,-0.181621,-0.236491,1.600292
5086160964,-235.423325,-68.027451,-1.920218,0.047130,-0.253591,1.267540
5086181022,-93.998550,-65.197968,2.443891,-0.070740,-0.385958,1.073784
5086201081,-2.836494,-98.748291,-16.630909,-0.093619,-0.413616,1.191699
5086221141,30.900299,-129.426361,6.115521,0.117746,0.062620,1.078807
5086241199,31.956661,-64.937576,-23.978697,0.088001,-0.063632,1.111944
5086261257,34.629101,-57.130096,-20.830780,0.177317,-0.095141,1.348491
5086281316,18.880548,-68.118057,-17.512808,0.146621,0.024239,1.296874
5086301373,14.944188,-107.776291,-23.530691,0.148188,0.070344,1.333790
5086321432,-19.113583,-106.430748,-8.233705,0.357745,0.089368,1.160089
5086341490,-29.148716,-48.587502,6.274104,0.248107,0.024039,1.189318
5086361549,22.046457,-72.468758,-0.738092,0.292527,0.125223,1.176620
5086381608,61.026627,-78.245148,16.245996,0.373800,0.244919,0.937001
5086401666,41.699825,-54.981667,38.425011,0.346440,0.168709,0.783177
5086421725,30.661013,-64.147713,38.465149,0.272541,0.064175,0.751301
5086441784,29.759542,-82.541306,18.785801,0.291985,0.157282,0.659503
5086461843,-12.231127,-69.268341,26.441515,0.320647,0.220758,0.507548
5086481901,-35.120411,-39.396187,52.611511,0.334064,0.223882,0.346036
5086501958,21.972942,-22.369717,65.849609,0.277051,-0.009182,0.315450
5086522017,78.714844,-14.219132,44.039402,0.167426,-0.197487,0.336833
5086542075,102.676941,15.106320,27.627888,0.178922,-0.126656,0.400752
5086562134,81.589432,26.571606,32.748001,0.228809,-0.102752,0.482788
5086582192,53.737762,29.854048,44.208233,0.204149,-0.186388,0.384102
5086602250,57.492645,40.952271,35.495762,0.125922,-0.358241,0.337934
5086622310,42.820095,55.780190,31.569138,0.181843,-0.246989,0.419933
5086642369,52.393532,62.393013,27.190338,0.154841,-0.124878,0.552068
5086662427,112.213593,56.520134,24.918736,0.123668,-0.163382,0.579459
5086682486,95.576714,54.645687,25.387234,0.069927,-0.316593,0.518492
5086702543,38.277760,69.816940,27.047342,0.042398,-0.315457,0.573058
5086722601,17.972967,75.132599,29.061611,0.056789,-0.256449,0.845961
5086742659,-14.964098,51.301460,27.571436,-0.016064,-0.303206,0.924292
5086762718,-52.171192,48.062218,30.418249,-0.054138,-0.228953,0.754728
5086782777,-44.330437,56.332111,48.169483,-0.142702,-0.239070,0.745517
5086802836,-18.238966,40.537697,36.666550,-0.138093,-0.357091,1.204557
5086822895,-9.095453,43.442543,7.913744,0.089123,-0.419561,1.611603
5086842953,32.573284,28.133137,-3.308989,0.045633,-0.412172,1.811476
5086863012,59.117325,35.289856,-28.435574,0.118023,-0.307461,1.467777
5086883069,24.008047,34.802147,-28.642630,0.047546,-0.057758,1.288721
5086903127,-9.044023,61.557747,-1.802079,0.048951,-0.053052,1.121219
5086923186,-20.673664,79.654236,8.300483,0.030810,0.022754,1.389858
5086943244,-13.106834,42.044857,6.447613,0.081477,0.083131,1.352099
5086963303,-19.999435,42.304184,14.601819,-0.010726,-0.037715,0.983650
5086983361,-34.978077,69.939865,24.371895,-0.069740,-0.191671,0.842138
5087003421,-36.590240,77.537231,14.304950,-0.139738,-0.222548,1.057537
5087023479,-5.847930,55.703949,9.478071,0.053788,-0.222017,1.096827
5087043538,192.482040,-61.878262,25.303335,-0.000049,-0.255503,2.083260
5087063596,-5.871412,-4.276839,5.221150,-0.067626,0.032087,1.030972
5087083653,9.092307,0.207492,10.630741,-0.063474,0.051623,1.065496
5087103712,-11.078827,4.272456,10.394176,-0.032397,0.004123,1.010508
5087123770,-18.053158,4.598596,7.830029,-0.047595,-0.003293,1.004285
5087143829,-15.950376,3.337374,5.705295,-0.049115,-0.022729,0.996993
5087163887,-14.369607,4.821628,2.514921,-0.052352,-0.023803,1.015826
5087183946,-11.491839,3.396889,4.461749,-0.046486,-0.036103,1.013519
5087204006,-8.252970,-0.670518,7.986285,-0.048526,-0.030665,0.994356
5087224064,-13.924704,-0.946577,9.146765,-0.061118,-0.034551,0.995622
5087244122,-9.651440,-2.897746,5.076133,-0.055457,-0.027998,1.005598
5087264181,-8.663262,-3.855386,2.734006,-0.047786,-0.036491,0.993613
5087284238,-5.901611,-0.987821,-0.274572,-0.047693,-0.049346,0.998684
5087304296,-1.093732,-0.709176,0.031304,-0.046755,-0.046853,1.002414
5087324355,0.845210,-1.033452,0.269981,-0.049041,-0.044048,0.992306
5087344414,0.357140,-1.448287,0.466681,-0.049903,-0.047784,1.000085
5087364472,1.055611,-1.381987,4.379571,-0.046344,-0.048574,0.994322
5087384530,0.346653,-2.403468,5.030711,-0.046918,-0.046663,1.011986
5087404590,3.616168,-4.024271,4.610613,-0.048152,-0.050379,1.004160
5087424649,4.540854,-2.956048,18.149529,-0.065751,-0.133805,1.030755
5087444707,-3.845897,-8.187792,16.461853,-0.063579,0.030636,1.092637
5087464765,-27.818731,-9.843876,17.639086,-0.070801,0.045516,1.019726
5087484823,-56.938915,-3.544405,25.992073,0.034066,0.016921,1.353771
5087504881,-48.788704,-36.069847,20.850523,-0.058698,-0.408836,1.696371
5087524940,-42.259956,-55.394196,15.128723,0.039282,-0.248926,1.609773
5087544998,-7.550674,-78.982605,15.204802,0.019857,-0.223699,1.595537
5087565057,47.473522,-94.868004,-9.747283,-0.074541,-0.479478,1.545620
5087585115,45.253418,-115.739723,-19.292662,-0.033231,-0.417361,1.517062
5087605175,23.225065,-105.411255,-26.636150,0.043664,-0.235807,1.246753
5087625233,19.416006,-81.226959,-22.941793,0.096568,-0.168160,1.174110
5087645292,35.442936,-71.402870,-20.103043,0.065979,-0.217774,1.129756
5087665352,6.675956,-49.031528,-22.691923,0.012586,-0.237632,1.130435
5087685407,-19.499859,-67.085945,-23.617292,0.077193,-0.376889,1.196136
5087705466,15.584377,-92.181984,-30.432552,0.072878,-0.359566,1.235725
5087725524,69.263481,-101.858505,-46.776829,0.023956,-0.399476,1.022257
5087745582,97.220177,-100.799423,-54.831055,0.075026,-0.305587,0.929402
5087765641,26.166965,-110.967018,-46.190620,0.128684,-0.184969,0.872055
5087785701,-6.126030,-91.651245,-44.290642,0.147964,-0.145048,0.543771
5087805759,-41.668163,-50.489574,-37.994457,0.130030,-0.248404,0.280326
5087825818,-100.590263,-25.343222,-38.284641,0.094165,-0.375744,0.165131
5087845876,-83.263199,-0.115954,-54.076057,0.147857,-0.290289,0.126603
5087865933,-35.324192,8.191246,-57.056129,0.212220,-0.032754,0.185788
5087885992,-17.984612,27.001976,-59.863827,0.065999,-0.218235,0.152635
5087906050,-16.566288,72.575943,-80.308884,0.012155,-0.184842,0.143135
5087926109,-28.404783,95.059952,-82.294205,0.109267,0.084722,0.434312
5087946167,-36.548885,86.788658,-69.299553,0.155755,0.313754,0.574389
5087966226,-20.570755,90.097702,-61.266911,0.110247,0.394819,0.360187
5087986286,-21.861223,102.379768,-46.999474,0.122062,0.371319,0.286692
5088006344,-20.887163,109.654968,-30.577095,0.104091,0.346648,0.421267
5088026403,5.126980,80.660141,-20.386965,0.138478,0.401447,0.867267
5088046461,-12.495659,53.985977,-12.812779,0.035293,0.135658,1.155716
5088066518,-35.881622,36.189297,-26.589012,0.049101,0.142811,1.040687
5088086576,-7.889174,14.389965,-37.414864,0.195224,0.344261,0.983811
5088106635,19.258694,1.403306,-31.988804,0.196686,0.347592,1.111598
5088126693,2.845744,-2.152023,-23.466988,0.185252,0.294362,1.236305
5088146752,9.666260,-2.483545,-27.860352,0.115846,0.329923,0.954022
5088166811,24.939230,12.975264,-35.620846,0.175020,0.399141,0.892972
5088186870,20.457823,101.726921,-17.051113,0.329416,0.515443,1.091787
5088206929,16.005508,75.742096,-6.650669,0.239302,0.363797,1.352576
5088226987,0.074149,81.320526,3.245872,0.163425,0.173488,1.445856
5088247046,-30.736046,79.366753,11.498108,0.111472,0.086418,1.259857
5088267103,-51.767609,91.962212,12.146728,0.104598,0.042765,1.117731
5088287161,-54.260620,98.272171,15.638073,0.060297,0.059082,1.066548
5088307220,-38.159550,99.724564,17.479578,0.056907,0.005924,1.120256
5088327278,93.947647,-23.332340,-5.342890,-0.078383,-0.306776,2.242448
5088347337,55.668228,-2.609542,-19.452377,-0.196516,-0.027031,1.392899
5088367395,24.669769,-2.156724,-9.491450,-0.057686,0.040668,1.009080
5088387455,11.464741,1.755033,-6.796598,0.037829,0.030433,1.010985
5088407513,1.235991,-1.460587,-0.694596,-0.043852,0.021775,1.020131
5088427572,8.527031,-2.613588,-0.897802,-0.055432,0.023579,0.956862
5088447633,9.129443,-2.515855,-0.440539,-0.054271,0.048932,1.017262
5088467687,4.785233,-1.897376,-0.078037,-0.045473,0.042054,1.003364
5088487746,4.065247,0.311099,-0.818548,-0.048811,0.037415,0.985384
5088507804,5.412184,3.154316,-0.910416,-0.049226,0.043214,1.009758
5088527863,6.125639,0.136383,-0.090913,-0.049482,0.050058,1.003565
5088547921,3.849415,0.757322,0.763790,-0.050236,0.052256,1.005077
5088567981,4.239769,0.180366,0.492549,-0.055739,0.047172,0.996547
5088588040,4.071956,0.010947,0.644398,-0.048609,0.054080,1.005817
5088608098,2.582941,0.765530,0.163410,-0.049712,0.050758,1.000999
5088628157,1.910842,1.038100,0.196795,-0.049561,0.052596,1.002897
5088648214,0.651694,0.935991,0.099250,-0.050095,0.055917,1.007502
5088668272,-1.875735,1.576735,0.199241,-0.050939,0.054897,1.014248
5088688331,-5.925483,6.928009,4.839521,-0.049078,0.111697,1.039465
5088708390,1.420087,43.837669,17.929596,-0.144460,0.142287,1.115419
5088728448,40.765236,28.975166,9.521269,-0.182431,-0.046068,1.895894
5088748506,55.698494,-69.295898,11.061339,-0.105797,0.135066,1.838123
5088768566,53.917187,-114.208832,18.625496,-0.139384,0.111211,1.596396
5088788624,56.293465,-135.499359,-0.123765,-0.001946,0.334414,1.445708
5088808683,53.596172,-134.117767,0.911805,0.119232,0.468469,1.269800
5088828741,31.772661,-111.002785,15.999310,0.199902,0.440489,1.137990
5088848798,-11.384197,-86.406967,28.883507,0.207411,0.428433,1.098129
5088868857,-13.714836,-76.635971,32.937355,0.234962,0.470725,1.058952
5088888915,25.830753,-66.266403,24.049467,0.245989,0.493961,1.021592
5088908973,12.465953,-88.335243,33.909981,0.326715,0.433898,1.099394
5088929032,-13.240370,-20.575821,42.609097,0.288156,0.368433,0.998785
5088949090,-25.948669,-23.304516,46.811241,0.265206,0.327507,0.933954
5088969150,-64.287148,-25.997070,50.685722,0.176891,0.148277,0.763714
5088989208,-81.160744,-27.834337,34.767521,0.157844,0.097493,0.651541
5089009267,-96.167885,-19.551826,31.511055,0.208593,0.224974,0.641953
5089029325,-108.851791,-16.475140,41.462795,0.255038,0.333623,0.569462
5089049383,-74.504471,-16.469545,49.221107,0.227095,0.239937,0.561497
5089069441,-46.343887,-20.680517,35.343849,0.103972,-0.104636,0.432214
5089089500,-43.607533,-17.954651,18.708847,0.184091,-0.016279,0.499688
5089109558,-36.848377,-12.510120,22.048628,0.281659,0.139156,0.437213
5089129617,-12.496770,9.608691,24.840693,0.163438,-0.015151,0.397032
5089149675,-0.696333,22.741594,12.151445,0.096051,-0.242257,0.509945
5089169735,-10.351855,31.067427,-0.612602,0.181617,-0.180867,0.615494
5089189794,-13.058733,34.906837,6.899850,0.275060,-0.021545,0.533196
5089209852,2.758013,39.410606,30.678944,0.263414,-0.009252,0.447279
5089229910,32.605984,44.108143,43.333702,0.212126,-0.057552,0.457618
5089249968,40.947601,51.466343,57.424133,0.201517,-0.124439,0.501765
5089270026,19.504345,56.418674,69.501022,0.155674,-0.290018,0.554194
5089290084,1.789177,53.908146,73.202324,0.044810,-0.442404,0.541951
5089310143,13.245505,53.591862,57.563057,0.009208,-0.293930,0.612697
5089330201,43.834099,39.715744,49.672340,0.018264,-0.109787,0.725206
5089350260,78.580803,31.216249,35.184917,-0.088071,-0.203881,0.837916
5089370320,52.624969,27.637007,21.332232,-0.069490,-0.232874,0.944217
5089390378,13.875260,33.834137,18.532825,-0.026379,-0.189146,0.825956
5089410436,14.360833,35.456722,19.136932,-0.012283,-0.000719,0.739383
5089430505,28.054224,36.845604,24.728264,-0.068878,-0.091703,0.979784
5089450552,26.501179,25.893139,21.086140,-0.065867,-0.291170,1.333887
5089470610,29.784090,14.109137,-2.519870,-0.043206,-0.361787,1.109972
5089490669,14.779693,63.949978,-7.933478,-0.053729,-0.129374,1.046894
5089510727,18.162434,56.830700,-6.617385,-0.134861,-0.086224,1.099350
5089530786,61.140388,52.271759,-22.545044,-0.066681,-0.073980,1.267421
5089550845,76.670708,44.948128,-41.698009,-0.120951,-0.073423,1.351686
5089570904,40.111881,47.655136,-47.589546,-0.137525,-0.039775,1.352004
5089590962,30.847271,42.987095,-41.826195,-0.099787,0.031342,1.340701
5089611021,46.101578,46.650875,-35.720245,-0.097337,0.013092,1.255661
5089631078,-1.533638,51.205513,-10.125806,-0.053723,-0.011800,1.469568
5089651136,-30.481434,33.653797,-18.618855,-0.151327,0.091661,1.132728
5089671195,-55.584774,-49.497818,-4.212245,-0.094919,0.315557,2.158501
5089691253,-90.223160,-110.718765,10.810691,0.044334,-0.008683,1.392195
5089711312,-21.458416,-12.122474,2.271622,-0.165313,0.095266,0.954368
5089731370,-25.873781,-12.826686,7.348602,0.020558,0.006020,0.987216
5089751430,-26.848648,-12.848198,13.323818,0.040885,-0.022495,0.991290
5089771488,-34.141716,-14.387676,3.485932,-0.016110,0.017106,1.027727
5089791546,-48.217979,-15.447644,-1.278761,-0.020703,-0.005979,1.018958
5089811605,-28.744251,-10.335948,-20.545992,-0.034810,-0.034127,0.985894
5089831662,-9.849009,-5.375865,-24.860041,0.011807,-0.039551,0.992302
5089851721,-2.334517,-3.923889,-6.753120,0.012939,-0.067067,0.994910
5089871779,2.574066,-3.444728,-0.136921,-0.003396,-0.036398,0.997181
5089891838,2.312881,-2.300924,-0.121843,-0.001733,-0.028903,1.001234
5089911896,-0.810915,-1.013861,0.067083,-0.001406,-0.030572,0.998066
5089931955,-2.292656,-0.285126,0.013154,-0.003486,-0.031252,1.002504
5089952015,-5.194427,0.614257,0.077249,0.000300,-0.032922,0.999493
5089972073,-7.052248,2.668542,0.192297,-0.002345,-0.033681,1.005016
5089992131,-11.050238,4.740008,3.538404,0.044119,0.041789,1.010886
5090012190,-15.749876,7.604441,29.694040,0.009157,0.025337,1.025738
5090032247,-23.706881,8.956973,31.654354,-0.017175,-0.031770,1.100039
5090052305,-34.005199,24.478046,34.079174,-0.043682,-0.068082,1.163525
5090072364,-20.764143,8.680698,27.603958,0.041864,-0.119019,1.593873
5090092422,29.563854,-52.864555,2.320561,0.037971,-0.246013,1.793247
5090112481,19.880856,-86.330826,2.255713,0.083551,-0.235257,1.764610
5090132539,27.952122,-113.657257,0.037473,0.076334,-0.173406,1.558728
5090152599,50.333679,-119.440125,-1.975741,0.086504,-0.077741,1.450035
5090172657,46.028702,-111.113838,1.622708,0.079680,-0.133661,1.395434
5090192716,46.732616,-92.818161,-4.156559,0.100795,-0.190443,1.251607
5090212774,11.812435,-67.477058,-1.780242,0.100227,-0.302297,1.203218
5090232831,-24.744110,-56.833252,2.111412,0.141306,-0.185431,1.221024
5090252890,-10.378458,-75.346489,-2.917606,0.109468,-0.090279,1.059919
5090272948,16.435740,-73.956253,-14.065183,0.082002,-0.070032,0.951085
5090293006,27.467098,-56.028465,-19.773657,0.190545,-0.121067,1.016264
5090313065,-14.975490,-51.189758,-5.447365,0.218982,-0.243587,1.141396
5090333123,-48.321571,-68.868698,4.712260,0.252772,-0.166307,1.014742
5090353183,-52.536171,-78.037376,12.300598,0.181899,-0.092723,0.717595
5090373242,-36.493011,-64.830620,0.603610,0.229207,-0.072630,0.555891
5090393300,-31.738911,-44.125515,2.239663,0.248729,-0.207701,0.653539
5090413357,-14.471920,-48.643768,-9.224399,0.261381,-0.265891,0.557185
5090433415,-13.688710,-21.653738,-15.347453,0.223550,-0.272557,0.350853
5090453475,-9.744756,7.604437,-25.902477,0.245751,-0.257878,0.304494
5090473532,-20.764181,3.677264,-22.046360,0.337698,-0.320851,0.653182
5090493591,-26.793440,12.019259,-35.648384,0.142779,-0.527323,0.399058
5090513650,-57.562145,52.797127,-56.652451,0.065006,-0.506320,0.062504
5090533709,-38.866833,100.972443,-77.585594,0.138852,-0.209748,0.004400
5090553768,-0.564193,94.709984,-69.971809,0.163880,-0.286777,0.543092
5090573826,-11.817844,86.622566,-86.830833,0.026752,-0.283412,0.524337
5090593884,-60.840897,110.258369,-84.226044,-0.085796,-0.012129,0.206239
5090613942,-43.936565,125.714241,-73.374428,-0.014448,0.297279,0.289242
5090634000,10.327394,112.457268,-56.402363,0.024163,0.395535,0.675273
5090654059,36.150551,80.093018,-48.978939,-0.000520,0.213924,0.917828
5090674117,15.605505,65.606903,-44.979465,-0.140822,0.153183,0.774575
5090694176,14.842631,65.823700,-45.739685,-0.061811,0.375675,0.812898
5090714234,36.592201,42.680309,-30.493866,0.052700,0.357711,1.121099
5090734294,51.649979,10.699451,-36.498932,0.034387,0.199673,1.140392
5090754352,40.254303,3.482980,-41.511993,-0.012827,0.279435,0.844715
5090774411,33.702972,15.700272,-33.239639,0.036431,0.278874,0.803229
5090794469,39.104340,11.487968,-32.130665,0.098205,0.266336,0.956679
5090814526,38.271286,6.358372,-31.153439,0.075043,0.264895,0.947503
5090834585,20.797155,27.686703,-28.382772,-0.015572,0.223065,0.860615
5090854643,-9.793005,68.152168,-11.045121,0.111625,0.382368,1.153947
5090874702,-4.395527,24.209093,7.017380,0.112021,0.358414,1.210412
5090894760,26.309788,52.489491,-3.408484,0.105206,0.212330,1.287255
5090914818,8.667695,51.906441,0.777452,0.010906,0.252392,1.060006
5090934878,-4.646062,91.551056,7.177113,0.054993,0.298356,1.225973
5090954937,-0.399054,82.495857,9.601320,0.071302,0.289548,1.358917
5090974995,12.320207,76.273407,7.587485,0.005372,0.108634,1.333878
5090995053,-5.761484,85.595444,9.400979,-0.032928,0.084478,1.368091
5091015110,-29.711412,-113.891945,15.634146,0.053441,0.001730,2.949706
5091035169,10.373868,-3.057743,0.080332,-0.204079,0.126472,0.936693
5091055227,-3.227483,-2.869102,7.971486,-0.043329,0.062239,0.995427
5091075286,-5.804861,-1.600354,3.345346,0.067489,0.022845,0.991558
5091095344,-4.668996,1.293138,0.332212,-0.040624,0.054158,0.970300
5091115403,-0.874229,0.357571,0.350216,-0.077217,0.060289,1.006306
5091135462,-0.793860,-2.280933,0.120351,-0.067826,0.063457,1.005808
5091155521,1.061754,-2.839820,0.044952,-0.054498,0.062010,0.998777
5091175579,-0.184420,-1.670860,0.428147,-0.055351,0.064395,1.000741
5091195638,-1.650574,-1.016793,0.144861,-0.058190,0.063022,0.990943
5091215695,-1.230731,-0.961221,0.007124,-0.057820,0.061074,0.995898
5091235754,-0.078703,-0.629966,0.029968,-0.058031,0.058728,0.997562
5091255812,1.164700,-0.222940,0.167548,-0.059496,0.061734,0.998048
5091275870,1.324421,0.266998,0.010040,-0.056774,0.062046,0.993352
5091295929,0.773739,1.066913,-0.022236,-0.056295,0.061814,0.997286
5091315987,0.231475,1.332755,-0.065416,-0.056474,0.064813,0.997158
5091336047,0.895665,1.158351,0.046766,-0.060191,0.061769,1.001410
5091356105,-0.058997,1.575522,0.020507,-0.057727,0.064821,1.006530
5091376164,-1.907669,2.568954,0.159580,-0.057307,0.065534,1.013919
5091396221,-2.538763,18.570896,5.423297,-0.101625,0.109550,1.038869
5091416279,7.455101,62.699898,7.490468,-0.091696,0.107921,1.118797
5091436338,41.076340,36.796688,-8.932156,-0.113833,0.128784,1.609906
5091456396,37.297348,-33.804855,-12.766539,-0.093117,0.207251,1.587438
5091476454,3.517316,-57.482712,-2.650378,-0.066278,0.247301,1.568523
5091496513,-25.449841,-68.361198,15.698433,-0.007719,0.361976,1.490811
5091516573,-29.856989,-70.156494,21.852074,-0.036266,0.313588,1.337567
5091536631,-19.195362,-51.009308,9.644065,0.001253,0.215606,1.192682
5091556689,-31.127848,-42.075874,14.984076,0.038620,0.217812,1.250096
5091576748,-36.842854,-30.683300,11.630754,0.050138,0.234551,1.199956
5091596805,-34.062061,-25.209494,16.808836,0.106383,0.234166,1.176022
5091616864,-32.873642,-22.681211,23.520500,0.070888,0.159607,1.066541
5091636922,-45.709694,-38.263680,29.216015,0.054949,0.088495,1.001447
5091656980,-55.709538,-3.776059,25.790098,0.031455,0.046620,1.011142
5091677039,-47.996113,-30.263544,21.304142,0.082062,0.146938,0.950771
5091697097,-30.851377,-35.261444,27.155470,0.064213,0.045521,0.821032
5091717157,-40.209389,-7.907001,25.920195,0.024120,-0.074649,0.782849
5091737215,-54.582081,-8.657461,19.326935,0.108449,0.084018,0.828822
5091757274,-36.567711,-18.173733,24.554050,0.126142,0.160881,0.722030
5091777333,-27.931337,-16.553520,34.306103,0.066079,0.078633,0.605606
5091797389,-33.069004,-7.139690,36.997189,0.078567,0.018076,0.630869
5091817448,-26.574629,1.330866,33.062481,0.067262,-0.041043,0.609240
5091837506,-17.622154,9.394799,29.349754,0.074285,-0.013745,0.603777
5091857565,-7.219226,16.002821,35.856190,0.095925,0.041219,0.654837
5091877623,11.194516,17.322874,37.921619,0.036673,-0.057825,0.714757
5091897682,25.630634,15.622629,29.371264,0.032113,-0.087349,0.794633
5091917742,54.372940,11.009184,14.353771,0.057311,-0.022922,0.829508
5091937800,77.901497,5.797287,17.384832,0.090595,0.046854,0.759027
5091957859,66.548409,6.757644,35.911655,0.036268,-0.106186,0.705710
5091977917,34.496315,7.154778,38.100060,-0.012525,-0.286626,0.701328
5091997974,17.052441,3.226106,23.116133,0.002651,-0.203442,0.651339
5092018032,14.927694,2.461440,19.186279,-0.003579,-0.007375,0.554995
5092038091,40.910652,6.863575,18.991100,-0.052829,-0.019774,0.547824
5092058149,54.668724,18.259430,13.268386,-0.116816,-0.204015,0.622378
5092078207,45.735840,22.398689,1.484532,-0.111757,-0.278858,0.767703
5092098266,40.035984,10.857664,-6.998240,-0.018310,-0.130183,0.823719
5092118326,34.346123,9.298472,7.459620,-0.011775,-0.039465,0.719756
5092138384,46.489895,9.470181,15.159566,-0.043758,-0.100870,0.730147
5092158443,36.134350,23.369173,15.987732,-0.028337,-0.193082,0.823227
5092178499,0.395762,31.675730,13.951089,-0.008325,-0.174070,0.878395
5092198558,-31.970398,33.521553,15.088451,-0.059269,-0.021480,0.802221
5092218617,14.580558,24.717367,13.013470,-0.094452,0.013436,0.713421
5092238675,59.825104,28.737871,8.654081,-0.078614,-0.106800,0.760299
5092258733,32.559658,35.902946,7.434484,-0.040389,-0.153481,1.054801
5092278792,16.521519,9.379618,1.671051,-0.086891,-0.097756,1.165051
5092298851,-0.694285,15.354605,-3.159511,-0.128412,0.060548,1.001238
5092318910,10.314308,22.528643,-8.643679,-0.218631,-0.003241,0.944156
5092338968,24.287346,51.011703,-17.756620,-0.196382,-0.027247,1.075739
5092359027,12.703003,54.017910,-24.621855,-0.128858,0.016766,1.213343
5092379083,-22.707972,40.259895,-16.196920,-0.151149,0.138342,1.155017
5092399142,-36.305183,39.214653,-10.830915,-0.263021,0.098266,1.112772
5092419200,-2.905229,62.424900,-21.895258,-0.259022,0.031469,1.218947
5092439259,2.620240,56.530697,-20.293251,-0.239975,-0.015361,1.270999
5092459318,-41.184845,-68.036560,-13.231509,-0.293281,0.437654,3.113492
5092479376,-148.067230,-295.703888,8.190778,-0.029757,-0.109214,1.718210
5092499436,-12.255365,1.772562,-9.149513,-0.122376,0.044371,0.940871
5092519494,9.871370,-7.643934,14.106072,-0.074539,0.097755,0.999372
5092539553,16.774282,-3.917403,13.269614,0.018961,-0.102856,1.015124
5092559611,2.847485,-5.544979,4.602709,-0.026948,0.039851,0.985310
5092579668,-14.835179,-9.078115,-0.437634,-0.037375,0.038053,1.003834
5092599726,-19.604242,-8.117294,-3.383318,-0.036483,0.015699,1.004556
5092619785,-9.541536,-3.518532,-5.448407,-0.032682,0.010509,0.995289
5092639843,-1.657960,-0.845219,-0.388116,-0.017455,-0.003493,1.004853
5092659902,-0.660536,0.435180,0.251128,-0.023211,0.004957,0.995346
5092679960,0.445498,1.057971,0.031702,-0.029561,0.008219,0.993823
5092700020,2.385390,0.247140,0.008017,-0.032467,0.009271,0.998682
5092720078,1.820758,0.061751,0.099447,-0.028458,0.014268,0.998702
5092740137,0.728293,0.807126,0.006777,-0.027794,0.011124,1.002398
5092760212,0.634444,2.278733,0.137993,-0.029743,0.008421,1.004490
5092780252,5.482676,3.719766,4.486695,-0.022958,0.026389,1.002137
5092800311,13.346090,2.101099,13.304867,-0.052348,-0.001734,1.005273
5092820369,14.572564,3.834011,21.377220,-0.097548,0.017921,1.038779
5092840428,35.365608,28.332481,14.127384,-0.151579,-0.048674,1.177431
5092860486,35.314922,4.178226,7.830973,-0.025045,0.118506,1.685664
5092880545,18.503311,-29.896656,16.632593,-0.067486,0.128687,1.621540
5092900604,14.639508,-41.350281,28.120090,-0.019625,0.122413,1.651059
5092920662,14.890886,-44.169315,33.061359,-0.063874,-0.109187,1.657184
5092940721,16.983362,-61.675446,26.328680,-0.010942,-0.087946,1.640882
5092960778,27.174726,-72.051712,15.978286,-0.014790,-0.089411,1.508834
5092980836,15.846016,-74.347359,13.352536,0.056623,-0.030628,1.424322
5093000895,-1.693921,-60.369003,16.284443,0.036493,-0.104681,1.364564
5093020953,-25.482677,-69.200424,11.276111,0.027304,-0.082478,1.278948
5093041011,-23.335796,-71.789803,4.840369,0.071133,0.033494,1.071689
5093061070,-7.694457,-50.586346,-5.838190,0.065944,-0.046866,0.905009
5093081129,-10.951901,-39.801178,-16.294703,0.099393,-0.047566,0.866511
5093101188,-36.756340,-47.879646,-5.334713,0.135976,-0.035447,0.959284
5093121246,-54.282616,-47.383835,3.961480,0.069046,-0.095898,0.866662
5093141305,-50.336067,-57.429207,2.710577,0.098715,-0.045344,0.852883
5093161362,-49.391125,-67.606262,3.798761,0.087731,-0.164813,0.683610
5093181420,-56.337494,-52.961212,-10.152231,0.041669,-0.307714,0.557178
5093201479,-32.563698,-31.903135,-32.785824,0.106992,-0.267405,0.391664
5093221537,-12.918679,-21.843260,-30.547194,0.195058,-0.335769,0.519501
5093241596,-8.744648,-23.200716,-35.537144,0.137437,-0.515545,0.456020
5093261654,-43.802704,-3.268041,-48.833282,0.036660,-0.584812,0.361037
5093281714,-54.315556,19.147289,-64.515663,0.119553,-0.331472,0.359227
5093301772,-53.227390,38.976013,-59.071465,0.133223,-0.214059,0.392566
5093321830,-43.112427,34.412216,-53.777069,0.122951,-0.082383,0.414626
5093341889,-25.981373,48.555557,-54.881077,-0.026097,-0.053239,0.278145
5093361946,-9.734861,56.299290,-63.323624,0.066439,0.053280,0.466879
5093382005,-9.655244,52.814156,-61.422501,0.066182,0.138168,0.579131
5093402063,-9.546854,39.803204,-42.749741,0.136666,0.393788,0.594577
5093422122,4.933831,40.253986,-20.480667,0.003277,0.290528,0.584649
5093442180,18.142105,42.426971,-27.959990,0.036181,0.116324,0.783414
5093462240,10.035105,36.014774,-33.157135,0.084691,0.199874,0.866950
5093482298,11.150695,16.103313,-28.016581,0.144265,0.295724,0.980202
5093502356,14.991205,-5.504805,-20.297367,0.087482,0.321663,0.892009
5093522415,22.854013,1.570560,-32.619816,0.102414,0.255694,0.816765
5093542472,30.912249,-4.646196,-37.356483,0.182850,0.195198,1.044802
5093562530,22.815306,-19.321981,-40.475563,0.223833,0.152568,1.135165
5093582589,10.269158,-28.269760,-28.568123,0.269095,0.247858,1.089072
5093602647,18.648270,-11.646923,-20.020990,0.259846,0.277244,1.012404
5093622705,40.194454,13.270741,-17.031343,0.226985,0.206921,0.978090
5093642764,34.932480,12.950608,-21.425867,0.181333,0.117823,0.903152
5093662824,20.251688,56.967438,-21.008812,0.284825,0.223377,1.026334
5093682882,16.739946,53.298805,-6.285454,0.229628,0.332780,1.001186
5093702941,33.731476,39.605263,5.540073,0.205697,0.266947,0.822773
5093722999,12.810243,61.134331,13.139748,0.082247,0.068064,0.778794
5093743056,-54.265617,90.418976,16.856581,0.073763,0.051797,1.013976
5093763114,-38.682560,108.931503,15.606546,0.137773,0.288704,1.056234
5093783173,6.803203,114.449593,28.596855,0.028441,0.192047,1.184424
5093803231,9.607514,125.471375,32.656757,-0.057478,-0.130603,1.207746
5093823290,19.719318,68.583763,24.502069,-0.061848,-0.416256,3.347257
5093843348,42.362652,-42.239841,-4.831788,-0.228391,0.249050,1.471326
5093863408,4.980515,-9.558655,-1.132193,-0.070672,0.143117,1.034971
5093883466,-8.181664,-6.105005,-2.765924,-0.031827,0.039482,0.966979
5093903524,-4.152965,-1.100393,-0.926869,-0.029477,0.055517,1.005613
5093923585,-0.606694,-0.271314,0.910452,-0.047849,0.050879,1.003951
5093943640,1.683015,-0.327087,1.089106,-0.047998,0.053823,1.007382
5093963698,3.369324,0.260273,0.715842,-0.051445,0.049671,1.001161
5093983757,2.109820,0.680080,0.186624,-0.046158,0.060300,1.001050
5094003815,0.000617,1.410429,1.835123,-0.047249,0.058846,1.000955
5094023873,-1.325406,0.303534,1.350109,-0.053870,0.062343,1.004623
5094043934,-2.159697,-0.796648,5.579050,-0.051621,0.121704,0.996525
5094063992,0.506132,-0.426373,19.240282,-0.051813,0.016197,0.990215
5094084050,4.041307,0.403427,0.158585,-0.039033,0.013953,0.993855
5094104108,-1.905396,1.212928,-0.169124,-0.047991,0.065365,1.007163
5094124165,-8.964998,1.004256,-0.485795,-0.057778,0.070397,1.009568
5094144224,-46.285568,2.478525,-6.093587,-0.076622,0.103705,1.142753
5094164282,-47.938057,-1.308629,-4.267495,-0.025710,-0.023206,0.874566
5094184341,-14.725544,-0.176791,-0.902279,-0.042554,0.012043,0.976023
5094204399,-4.095769,0.837786,0.206339,-0.046494,-0.005128,0.950416
5094224458,12.451935,0.809227,0.115469,-0.050434,0.024264,1.005567
5094244517,-10.054235,-0.702418,-0.219611,-0.054933,0.039826,1.050554
5094264576,-9.588467,-0.823177,-0.221183,-0.044415,-0.003029,0.951435
5094284634,1.233888,-0.396441,-0.093025,-0.047968,0.017167,1.005054
5094304693,-1.941604,-0.284494,0.065933,-0.050478,0.009397,0.991958
5094324749,0.653631,-0.422587,0.136729,-0.049642,0.013442,0.996398
5094344808,-0.452645,-0.646031,-0.007605,-0.052192,0.013626,0.996348
5094364866,0.165165,-0.346667,-0.006886,-0.049984,0.010792,0.995053
5094384925,0.920709,-0.275723,-0.023065,-0.050196,0.012356,0.996765
5094404983,1.043003,-0.412939,0.006395,-0.049984,0.013484,1.000405
5094425041,-0.376645,-0.416839,-0.013972,-0.050721,0.015854,1.000912
5094445101,-1.124997,-0.005062,-0.277136,-0.052453,0.012346,0.995628
5094465160,-2.117585,0.244072,-0.296723,-0.048708,0.013483,1.000338
5094485218,-2.667033,0.289561,-0.478559,-0.049446,0.011070,0.995516
5094505277,-2.490969,-0.037790,-0.519019,-0.050370,0.012169,0.996308
5094525333,-1.766208,0.085151,-0.344098,-0.047948,0.010099,0.998474
5094545392,-1.285215,-0.105304,-0.193540,-0.048973,0.008513,0.994459
5094565450,-0.079603,-0.065881,0.117333,-0.047896,0.008704,0.995389
5094585509,0.095869,0.042035,0.033757,-0.053026,0.009271,0.997111
5094605567,0.294445,-0.025861,0.002470,-0.050553,0.010624,0.996321
5094625625,0.615130,-0.147513,0.069815,-0.049046,0.008285,0.998747
5094645685,0.455235,-0.337888,-0.053127,-0.052385,0.010450,0.996927
5094665744,0.294691,-0.209156,0.024238,-0.049607,0.010204,0.999627
5094685802,-0.094339,-0.370514,0.023951,-0.049218,0.011006,0.998166
5094705862,-0.231919,-0.248922,0.040198,-0.048925,0.009449,0.997003
5094725917,-0.315758,-0.209680,-0.150141,-0.047931,0.010362,0.997468
5094745976,-0.277779,-0.180111,0.002554,-0.049181,0.009347,0.995996
5094766034,-0.247030,-0.286375,-0.066812,-0.048732,0.010714,0.996354
5094786093,-0.315693,-0.317200,-0.051618,-0.050292,0.009814,0.997065
5094806151,-0.315923,-0.164640,-0.043058,-0.048615,0.009209,1.000204
5094826211,-0.369722,0.133282,-0.109805,-0.050144,0.010834,0.999063
5094846269,-0.674854,0.033423,-0.140384,-0.046491,0.010099,0.998501
5094866327,-0.529716,-0.080995,-0.087939,-0.048090,0.009802,0.996103
5094886386,-0.461063,-0.057960,-0.080292,-0.046924,0.011267,0.997203
5094906443,-0.407833,0.010125,0.026836,-0.049260,0.008340,0.995276
5094926501,-0.186331,-0.003493,-0.118597,-0.047216,0.007279,0.998246
5094946560,-0.270293,-0.065470,-0.019647,-0.048560,0.008902,0.996925
5094966618,-0.071992,-0.012019,0.056615,-0.048086,0.008981,0.995839
5094986677,0.187742,-0.102154,-0.043579,-0.047515,0.012386,0.999825
5095006735,-0.315930,-0.164693,-0.035429,-0.046540,0.007982,0.995970
5095026794,0.057993,-0.179629,0.070617,-0.049410,0.010012,0.998721
5095046853,-0.415116,-0.156974,-0.088608,-0.050000,0.009984,0.995974
5095066912,-0.064040,-0.148446,-0.073927,-0.050494,0.010553,0.998239
5095086970,-0.422654,-0.333724,0.085797,-0.048436,0.006574,1.000328
5095107027,-0.437815,-0.278971,-0.112199,-0.048027,0.007001,0.997686
5095127085,-0.346439,-0.164621,-0.058261,-0.046394,0.009095,0.998149
5095147144,-0.460933,-0.195843,-0.004843,-0.049219,0.008098,0.998199
5095167202,-0.254836,-0.225989,0.025120,-0.046921,0.007447,0.996972
5095187260,-0.193919,-0.088037,-0.035180,-0.048087,0.009709,0.995922
5095207318,-0.254984,-0.119107,0.018144,-0.046481,0.008001,0.997886
5095227379,0.019702,-0.018697,-0.042768,-0.047283,0.010173,0.996844
5095247437,-0.155999,0.064526,-0.011429,-0.046682,0.009013,0.998966
5095267495,0.080956,-0.117349,-0.096884,-0.047276,0.008259,0.996409
5095287554,-0.132941,-0.103922,0.079051,-0.046571,0.008273,0.997790
5095307611,-0.010806,-0.088045,0.040783,-0.047951,0.007555,0.998593
5095327669,-0.315924,-0.187798,-0.005053,-0.046403,0.006918,0.998630
5095347727,-0.064137,-0.126032,-0.005128,-0.048027,0.006364,0.997693
5095367786,-0.247174,-0.202597,-0.043413,-0.045280,0.008899,0.996895
5095387845,-0.300786,-0.134712,0.048647,-0.048926,0.008085,0.997019
5095407903,-0.079506,-0.049716,-0.012264,-0.049242,0.008476,0.999562
5095427962,-0.255115,0.018777,-0.057305,-0.046428,0.007842,1.000078
5095448021,-0.216813,-0.095787,-0.027557,-0.049044,0.006829,0.998581
5095468079,-0.010671,-0.102456,-0.081371,-0.046045,0.006740,0.999003
5095488138,-0.209020,-0.171699,-0.081438,-0.045849,0.007004,0.998183
5095508194,-0.110148,0.026503,-0.011743,-0.048933,0.006362,0.997402
5095528253,0.126566,-0.072338,0.033004,-0.047914,0.007078,0.996410
5095548311,0.126537,-0.057130,0.040726,-0.046523,0.008845,1.000339
5095568369,-0.110176,0.026291,0.018772,-0.046615,0.008245,0.995053
5095588428,0.271413,0.081063,-0.019723,-0.044464,0.007628,0.997107
5095608488,-0.148475,0.017434,0.178998,-0.047400,0.007916,0.998326
5095628546,0.072978,0.042023,0.026169,-0.047097,0.008625,0.996591
5095648604,-0.003101,-0.118333,0.010068,-0.048103,0.008719,0.996844
5095668663,-0.033734,-0.111481,0.109343,-0.048701,0.006604,0.994485
5095688720,-0.300812,-0.073188,-0.019639,-0.046116,0.007273,0.997810
5095708779,-0.079397,-0.187759,0.086072,-0.046303,0.006186,0.998092
5095728837,-0.056674,-0.057866,0.071566,-0.045390,0.007184,0.998007
5095748895,-0.254800,-0.187145,-0.073821,-0.049371,0.005716,0.996398
5095768953,0.134288,-0.094783,-0.028180,-0.047841,0.007453,0.997502
5095789012,-0.224464,-0.034231,-0.103459,-0.047036,0.006734,0.998346
5095809072,-0.056656,-0.026865,0.003093,-0.046852,0.008096,0.998243
5095829130,-0.064430,0.041470,0.049299,-0.045569,0.005636,0.997747
5095849189,0.057780,0.034774,-0.034881,-0.044548,0.006624,0.996661
5095869247,0.134132,-0.026532,0.033270,-0.046750,0.006817,0.997621
5095889304,0.096026,0.012363,-0.088490,-0.046219,0.007008,0.998541
5095909362,0.050124,0.065434,-0.057568,-0.048301,0.007456,0.997767
5095929420,0.195156,0.004219,0.025719,-0.047852,0.006733,0.998148
5095949479,0.011945,0.003482,0.056559,-0.049570,0.007271,0.997380
5095969537,0.126568,-0.049180,-0.005001,-0.045124,0.009370,0.998444
5095989596,0.011906,0.049479,0.026324,-0.046488,0.007823,0.998253
5096009656,-0.033721,-0.041954,-0.012298,-0.050113,0.007997,0.997180
5096029714,-0.117601,-0.072451,-0.050480,-0.046402,0.006281,0.998546
5096049772,0.118726,0.064939,0.041485,-0.048304,0.007004,0.997954
5096069830,-0.072073,0.033658,0.072152,-0.047846,0.005911,0.997793
5096089888,0.073014,0.026868,0.010818,-0.047367,0.007351,0.996417
5096109946,0.004199,0.056609,0.095043,-0.046758,0.006368,0.998082
5096130004,0.027288,-0.011310,-0.004591,-0.045478,0.007636,0.997818
5096150063,-0.010918,0.003682,0.018456,-0.048386,0.006453,0.997412
5096170121,0.103585,-0.034463,0.063793,-0.046955,0.009376,0.998957
5096190181,0.050219,-0.034137,-0.004772,-0.045835,0.007723,0.997354
5096210239,-0.079544,-0.019140,-0.019706,-0.047675,0.006372,0.998429
5096230298,0.034863,0.003707,0.033632,-0.045302,0.004822,0.998126
5096250356,0.187486,-0.019227,0.101881,-0.045558,0.005902,0.997106
5096270413,0.057796,-0.034540,0.056245,-0.046254,0.006792,0.995259
5096290472,0.057793,-0.003699,0.010659,-0.045120,0.007822,0.998187
5096310530,-0.178761,-0.057950,0.033639,-0.046399,0.008643,0.998428
5096330589,-0.079647,0.003220,0.056722,-0.046733,0.007716,0.996608
5096350646,0.042532,0.042573,-0.065323,-0.047955,0.005831,0.998795
5096370705,-0.003077,-0.110437,-0.028029,-0.046931,0.007089,0.997523
5096390765,-0.217054,0.118404,-0.102540,-0.049268,0.009163,0.995723
5096410823,-0.033803,0.019144,-0.019554,-0.049660,0.006180,0.997300
5096430882,0.050211,-0.018769,-0.019936,-0.045992,0.006890,0.995901
5096450940,-0.041491,0.095854,-0.080105,-0.046670,0.007187,0.998257
5096470997,-0.049026,-0.034580,0.018291,-0.046560,0.010721,0.997216
5096491055,0.034869,0.019181,0.003210,-0.046656,0.006543,0.997443
5096511114,-0.110151,0.018766,0.003468,-0.046311,0.006190,0.998548
5096531172,0.019713,-0.026328,-0.042815,-0.047132,0.006464,0.998621
5096551231,-0.247369,-0.034350,-0.095789,-0.048637,0.004439,0.996061
5096571289,0.035029,-0.133911,0.070938,-0.046853,0.007643,0.998339
5096591349,-0.010836,-0.057416,0.025712,-0.046480,0.007637,0.997799
5096611407,0.072922,0.041597,0.087199,-0.049002,0.008804,0.996188
5096631465,0.057968,-0.079527,-0.058467,-0.047136,0.006922,0.998889
5096651524,0.019582,-0.019601,0.086921,-0.046571,0.008091,0.997792
5096671580,-0.025909,-0.140865,-0.051062,-0.046015,0.007722,0.997260
5096691639,0.034786,0.057122,0.033958,-0.048583,0.007735,0.998306
5096711697,0.073048,0.042554,-0.050119,-0.045811,0.007254,0.995992
5096731756,0.019384,0.102330,0.110553,-0.045819,0.006804,0.996453
5096751814,0.080650,0.073205,-0.065204,-0.047957,0.006741,0.998967
5096771873,0.027307,-0.034309,0.010526,-0.046643,0.007080,0.996708
5096791932,0.042446,0.018777,0.064227,-0.047033,0.007187,0.998159
5096811991,0.057850,-0.057273,0.033219,-0.046176,0.006436,0.995994
5096832049,0.149276,0.042028,0.056548,-0.045757,0.006367,0.998101
5096852109,0.126726,-0.148272,-0.020864,-0.047771,0.006557,0.998699
5096872164,0.072993,0.026708,0.033704,-0.045566,0.007271,0.997638
5096892223,-0.003289,0.049967,-0.049937,-0.047015,0.009176,0.997133
5096912281,-0.201669,-0.065805,0.056519,-0.047918,0.008808,0.996665
5096932340,-0.071849,-0.003219,-0.111172,-0.046007,0.006080,0.996731
5096952398,0.141948,-0.079127,-0.081502,-0.046834,0.005449,0.997178
5096972458,0.027171,0.049522,0.026297,-0.046952,0.008284,0.998787
5096992516,0.011914,-0.004468,0.102286,-0.047465,0.007173,0.996782
5097012575,-0.026202,-0.027363,0.086956,-0.046744,0.007722,0.997246
5097032633,0.141889,-0.048711,-0.066058,-0.046582,0.006371,0.998450
5097052690,0.027324,-0.065044,0.040855,-0.045917,0.008900,0.996884
5097072748,-0.132773,-0.141224,-0.043243,-0.046649,0.008175,0.997060
5097092806,0.004200,0.041188,0.117836,-0.048150,0.007566,0.999593
5097112865,-0.018534,0.011504,-0.011999,-0.044980,0.008610,0.995354
5097132923,0.096089,-0.079737,-0.012762,-0.046575,0.005912,0.997999
5097152982,-0.163615,0.033768,0.018913,-0.046109,0.008178,0.997435
5097173041,-0.049033,-0.034633,0.025920,-0.046657,0.004816,0.997462
5097193100,-0.056714,0.003551,0.018537,-0.046402,0.009372,0.998602
5097213158,0.034782,0.064806,0.026376,-0.048841,0.007816,0.997388
5097233217,-0.033840,0.034299,-0.004203,-0.047464,0.007354,0.996780
5097253275,-0.125376,-0.004116,-0.004274,-0.048637,0.005257,0.996052
5097273332,0.019509,0.064709,0.034032,-0.045208,0.007093,0.998012
5097293390,-0.102473,0.065423,-0.118327,-0.045561,0.007995,0.997356
5097313449,0.057690,0.018662,0.087086,-0.046284,0.006265,0.996997
5097333507,-0.140591,-0.019209,-0.034855,-0.046000,0.007803,0.996347
5097353565,0.095888,-0.019542,0.109672,-0.047231,0.008561,0.999143
